<Bundle xmlns="http://hl7.org/fhir">
    <type value="transaction"/>
    <entry>
        <fullUrl value="urn:uuid:bb73165c-c7b9-4342-8e28-531f07fa7735"/>
        <resource>
            <Organization xmlns="http://hl7.org/fhir">
                <meta>
                    <profile value="http://dsf.dev/fhir/StructureDefinition/organization"/>
                    <tag>
                        <system value="http://dsf.dev/fhir/CodeSystem/read-access-tag"/>
                        <code value="ALL"/>
                    </tag>
                </meta>
                <extension url="http://dsf.dev/fhir/StructureDefinition/extension-certificate-thumbprint">
                    <valueString value="TODO"/>
                </extension>
                <identifier>
                    <system value="http://dsf.dev/sid/organization-identifier"/>
                    <value value="Test_ZARS"/>
                </identifier>
                <active value="true"/>
                <type>
                    <coding>
                        <system value="http://dsf.dev/fhir/CodeSystem/organization-role"/>
                        <code value="HRP"/>
                    </coding>
                </type>
                <name value="Test ZARS"/>
                <endpoint>
                    <reference value="urn:uuid:169e782c-2673-40e9-8b30-f1dc46dba984"/>
                    <type value="Endpoint"/>
                </endpoint>
            </Organization>
        </resource>
        <request>
            <method value="POST"/>
            <url value="Organization"/>
            <ifNoneExist value="identifier=http://dsf.dev/sid/organization-identifier|Test_ZARS"/>
        </request>
    </entry>
    <entry>
        <fullUrl value="urn:uuid:cf62edc2-cc5d-43ed-ac0e-caf09f7326c3"/>
        <resource>
            <Organization xmlns="http://hl7.org/fhir">
                <meta>
                    <profile value="http://dsf.dev/fhir/StructureDefinition/organization"/>
                    <tag>
                        <system value="http://dsf.dev/fhir/CodeSystem/read-access-tag"/>
                        <code value="ALL"/>
                    </tag>
                </meta>
                <extension url="http://dsf.dev/fhir/StructureDefinition/extension-certificate-thumbprint">
                    <valueString value="TODO"/>
                </extension>
                <identifier>
                    <system value="http://dsf.dev/sid/organization-identifier"/>
                    <value value="Test_DIC_1"/>
                </identifier>
                <active value="true"/>
                <type>
                    <coding>
                        <system value="http://dsf.dev/fhir/CodeSystem/organization-role"/>
                        <code value="DIC"/>
                    </coding>
                </type>
                <name value="Test DIC 1"/>
                <endpoint>
                    <reference value="urn:uuid:296cc73f-3a25-4aff-90f1-c5657a3ccbf1"/>
                    <type value="Endpoint"/>
                </endpoint>
            </Organization>
        </resource>
        <request>
            <method value="POST"/>
            <url value="Organization"/>
            <ifNoneExist value="identifier=http://dsf.dev/sid/organization-identifier|Test_DIC_1"/>
        </request>
    </entry>
    <entry>
        <fullUrl value="urn:uuid:169e782c-2673-40e9-8b30-f1dc46dba984"/>
        <resource>
            <Endpoint xmlns="http://hl7.org/fhir">
                <meta>
                    <profile value="http://dsf.dev/fhir/StructureDefinition/endpoint"/>
                    <tag>
                        <system value="http://dsf.dev/fhir/CodeSystem/read-access-tag"/>
                        <code value="ALL"/>
                    </tag>
                </meta>
                <identifier>
                    <system value="http://dsf.dev/sid/endpoint-identifier"/>
                    <value value="Test_ZARS_Endpoint"/>
                </identifier>
                <status value="active"/>
                <connectionType>
                    <system value="http://terminology.hl7.org/CodeSystem/endpoint-connection-type"/>
                    <code value="hl7-fhir-rest"/>
                </connectionType>
                <managingOrganization>
                    <reference value="urn:uuid:bb73165c-c7b9-4342-8e28-531f07fa7735"/>
                    <type value="Organization"/>
                </managingOrganization>
                <payloadType>
                    <coding>
                        <system value="http://hl7.org/fhir/resource-types"/>
                        <code value="Task"/>
                    </coding>
                </payloadType>
                <payloadMimeType value="application/fhir+json"/>
                <payloadMimeType value="application/fhir+xml"/>
                <address value="https://zars/fhir"/>
            </Endpoint>
        </resource>
        <request>
            <method value="POST"/>
            <url value="Endpoint"/>
            <ifNoneExist
                    value="identifier=http://dsf.dev/sid/endpoint-identifier|Test_ZARS_Endpoint"/>
        </request>
    </entry>
    <entry>
        <fullUrl value="urn:uuid:296cc73f-3a25-4aff-90f1-c5657a3ccbf1"/>
        <resource>
            <Endpoint xmlns="http://hl7.org/fhir">
                <meta>
                    <profile value="http://dsf.dev/fhir/StructureDefinition/endpoint"/>
                    <tag>
                        <system value="http://dsf.dev/fhir/CodeSystem/read-access-tag"/>
                        <code value="ALL"/>
                    </tag>
                </meta>
                <identifier>
                    <system value="http://dsf.dev/sid/endpoint-identifier"/>
                    <value value="Test_DIC_1_Endpoint"/>
                </identifier>
                <status value="active"/>
                <connectionType>
                    <system value="http://terminology.hl7.org/CodeSystem/endpoint-connection-type"/>
                    <code value="hl7-fhir-rest"/>
                </connectionType>
                <managingOrganization>
                    <reference value="urn:uuid:cf62edc2-cc5d-43ed-ac0e-caf09f7326c3"/>
                    <type value="Organization"/>
                </managingOrganization>
                <payloadType>
                    <coding>
                        <system value="http://hl7.org/fhir/resource-types"/>
                        <code value="Task"/>
                    </coding>
                </payloadType>
                <payloadMimeType value="application/fhir+json"/>
                <payloadMimeType value="application/fhir+xml"/>
                <address value="https://dic-1/fhir"/>
            </Endpoint>
        </resource>
        <request>
            <method value="POST"/>
            <url value="Endpoint"/>
            <ifNoneExist
                    value="identifier=http://dsf.dev/sid/endpoint-identifier|Test_DIC_1_Endpoint"/>
        </request>
    </entry>

    <entry>
        <fullUrl value="urn:uuid:c4a7b553-01b1-4b50-bcb3-1467f5ae6791"/>
        <resource>
            <Organization xmlns="http://hl7.org/fhir">
                <meta>
                    <profile value="http://dsf.dev/fhir/StructureDefinition/organization-parent"/>
                    <tag>
                        <system value="http://dsf.dev/fhir/CodeSystem/read-access-tag"/>
                        <code value="ALL"/>
                    </tag>
                </meta>
                <identifier>
                    <system value="http://dsf.dev/sid/organization-identifier"/>
                    <value value="medizininformatik-initiative.de"/>
                </identifier>
                <active value="true"/>
                <name value="Medizininformatik Initiative"/>
            </Organization>
        </resource>
        <request>
            <method value="POST"/>
            <url value="Organization"/>
            <ifNoneExist
                    value="identifier=http://dsf.dev/sid/organization-identifier|medizininformatik-initiative.de"/>
        </request>
    </entry>

    <entry>
        <fullUrl value="urn:uuid:6da23450-e2e2-49e1-8591-02c553d53e3b"/>
        <resource>
            <OrganizationAffiliation xmlns="http://hl7.org/fhir">
                <meta>
                    <profile value="http://dsf.dev/fhir/StructureDefinition/organization-affiliation"/>
                    <tag>
                        <system value="http://dsf.dev/fhir/CodeSystem/read-access-tag"/>
                        <code value="ALL"/>
                    </tag>
                </meta>
                <active value="true"/>
                <organization>
                    <reference value="urn:uuid:c4a7b553-01b1-4b50-bcb3-1467f5ae6791"/>
                    <type value="Organization"/>
                </organization>
                <participatingOrganization>
                    <reference value="urn:uuid:bb73165c-c7b9-4342-8e28-531f07fa7735"/>
                    <type value="Organization"/>
                </participatingOrganization>
                <code>
                    <coding>
                        <system value="http://dsf.dev/fhir/CodeSystem/organization-role"/>
                        <code value="HRP"/>
                    </coding>
                </code>
                <endpoint>
                    <reference value="urn:uuid:169e782c-2673-40e9-8b30-f1dc46dba984"/>
                    <type value="Endpoint"/>
                </endpoint>
            </OrganizationAffiliation>
        </resource>
        <request>
            <method value="POST"/>
            <url value="OrganizationAffiliation"/>
            <ifNoneExist
                    value="primary-organization:identifier=http://dsf.dev/sid/organization-identifier|medizininformatik-initiative.de&amp;participating-organization:identifier=http://dsf.dev/sid/organization-identifier|Test_ZARS"/>
        </request>
    </entry>

    <entry>
        <fullUrl value="urn:uuid:b84cddc8-83da-4bcc-9fdc-5e78cf709944"/>
        <resource>
            <OrganizationAffiliation xmlns="http://hl7.org/fhir">
                <meta>
                    <profile value="http://dsf.dev/fhir/StructureDefinition/organization-affiliation"/>
                    <tag>
                        <system value="http://dsf.dev/fhir/CodeSystem/read-access-tag"/>
                        <code value="ALL"/>
                    </tag>
                </meta>
                <active value="true"/>
                <organization>
                    <reference value="urn:uuid:c4a7b553-01b1-4b50-bcb3-1467f5ae6791"/>
                    <type value="Organization"/>
                </organization>
                <participatingOrganization>
                    <reference value="urn:uuid:cf62edc2-cc5d-43ed-ac0e-caf09f7326c3"/>
                    <type value="Organization"/>
                </participatingOrganization>
                <code>
                    <coding>
                        <system value="http://dsf.dev/fhir/CodeSystem/organization-role"/>
                        <code value="DIC"/>
                    </coding>
                </code>
                <endpoint>
                    <reference value="urn:uuid:296cc73f-3a25-4aff-90f1-c5657a3ccbf1"/>
                    <type value="Endpoint"/>
                </endpoint>
            </OrganizationAffiliation>
        </resource>
        <request>
            <method value="POST"/>
            <url value="OrganizationAffiliation"/>
            <ifNoneExist
                    value="primary-organization:identifier=http://dsf.dev/sid/organization-identifier|medizininformatik-initiative.de&amp;participating-organization:identifier=http://dsf.dev/sid/organization-identifier|Test_DIC_1"/>
        </request>
    </entry>
</Bundle>
